"view_history","rt","trial_type","trial_index","time_elapsed","internal_node_id","subject","condition","group","workerId","assginementId","hitId","questionNo","questionOrder","version","task","responses","stimulus","key_press","testNo","testOrder","correct"
"[{""page_index"":0,""viewing_time"":1420}]","1421","instructions","0","1424","0.0-0.0-0.0","fGIPsiTijKyDO","explicit","shuffled","","","","0","4","levels","explain","","","","","",""
"[{""page_index"":0,""viewing_time"":523},{""page_index"":1,""viewing_time"":368},{""page_index"":2,""viewing_time"":336},{""page_index"":3,""viewing_time"":380}]","1608","instructions","1","3035","0.0-1.0","fGIPsiTijKyDO","explicit","shuffled","","","","0","4","levels","explain","","","","","",""
"","2395","survey-text","2","5434","0.0-2.0","fGIPsiTijKyDO","explicit","shuffled","","","","0","4","levels","explain","{""Q0"":"" "",""Q1"":""""}","","","","",""
"[{""page_index"":0,""viewing_time"":763},{""page_index"":1,""viewing_time"":229}]","992","instructions","3","6427","0.0-3.0","fGIPsiTijKyDO","explicit","shuffled","","","","0","4","levels","explain","","","","","",""
"","1840","survey-text","4","8268","0.0-4.0","fGIPsiTijKyDO","explicit","shuffled","","","","0","4","levels","explain","{""Q0"":""gds"",""Q1"":""sdg""}","","","","",""
"[{""page_index"":0,""viewing_time"":1419},{""page_index"":1,""viewing_time"":511}]","1930","instructions","5","10200","0.0-5.0","fGIPsiTijKyDO","explicit","shuffled","","","","0","4","levels","explain","","","","","",""
"","1051","image-keyboard-response","6","11255","0.0-6.0-0.0","fGIPsiTijKyDO","explicit","shuffled","","","","0","4","levels","explain","","img/1_levels.png","32","","",""
"","4108","survey-text","7","15380","0.0-6.0-1.0-0.0","fGIPsiTijKyDO","explicit","shuffled","","","","0","4","levels","explain","{""Q0"":""sdg"",""Q1"":""sdg""}","","","","",""
"","1536","html-keyboard-response","8","16918","0.0-6.0-2.0-0.0","fGIPsiTijKyDO","explicit","shuffled","","","","0","4","levels","explain","","1_levels","70","1","0","1"
"","200","html-keyboard-response","9","17124","0.0-6.0-2.0-1.0","fGIPsiTijKyDO","explicit","shuffled","","","","0","4","levels","explain","","1_levels","74","0","1","0"
"","188","html-keyboard-response","10","17315","0.0-6.0-2.0-2.0","fGIPsiTijKyDO","explicit","shuffled","","","","0","4","levels","explain","","1_levels","70","5","2","0"
"","190","html-keyboard-response","11","17507","0.0-6.0-2.0-3.0","fGIPsiTijKyDO","explicit","shuffled","","","","0","4","levels","explain","","1_levels","74","2","3","1"
"","182","html-keyboard-response","12","17691","0.0-6.0-2.0-4.0","fGIPsiTijKyDO","explicit","shuffled","","","","0","4","levels","explain","","1_levels","70","3","4","0"
"","183","html-keyboard-response","13","17876","0.0-6.0-2.0-5.0","fGIPsiTijKyDO","explicit","shuffled","","","","0","4","levels","explain","","1_levels","74","4","5","1"
"","530","image-keyboard-response","14","18408","0.0-7.0-0.0","fGIPsiTijKyDO","explicit","shuffled","","","","0","4","levels","explain","","img/2_levels.png","32","","",""
"","4130","survey-text","15","22545","0.0-7.0-1.0-0.0","fGIPsiTijKyDO","explicit","shuffled","","","","0","4","levels","explain","{""Q0"":""l"",""Q1"":""r""}","","","","",""
"","331","html-keyboard-response","16","22878","0.0-7.0-2.0-0.0","fGIPsiTijKyDO","explicit","shuffled","","","","0","4","levels","explain","","2_levels","70","4","0","0"
"","1298","html-keyboard-response","17","24177","0.0-7.0-2.0-1.0","fGIPsiTijKyDO","explicit","shuffled","","","","0","4","levels","explain","","2_levels","70","5","1","0"
"","96","html-keyboard-response","18","24276","0.0-7.0-2.0-2.0","fGIPsiTijKyDO","explicit","shuffled","","","","0","4","levels","explain","","2_levels","74","2","2","1"
"","261","html-keyboard-response","19","24539","0.0-7.0-2.0-3.0","fGIPsiTijKyDO","explicit","shuffled","","","","0","4","levels","explain","","2_levels","74","0","3","0"
"","203","html-keyboard-response","20","24744","0.0-7.0-2.0-4.0","fGIPsiTijKyDO","explicit","shuffled","","","","0","4","levels","explain","","2_levels","70","3","4","0"
"","494","html-keyboard-response","21","25240","0.0-7.0-2.0-5.0","fGIPsiTijKyDO","explicit","shuffled","","","","0","4","levels","explain","","2_levels","70","1","5","1"
"","null","image-keyboard-response","22","145865","0.0-8.0-0.0","fGIPsiTijKyDO","explicit","shuffled","","","","0","4","levels","explain","","img/3_levels.png","null","","",""
"","37911","survey-text","23","183798","0.0-8.0-1.0-0.0","fGIPsiTijKyDO","explicit","shuffled","","","","0","4","levels","explain","{""Q0"":""one level"",""Q1"":""two levels""}","","","","",""
"","1891","html-keyboard-response","24","185693","0.0-8.0-2.0-0.0","fGIPsiTijKyDO","explicit","shuffled","","","","0","4","levels","explain","","3_levels","74","5","0","1"
"","842","html-keyboard-response","25","186539","0.0-8.0-2.0-1.0","fGIPsiTijKyDO","explicit","shuffled","","","","0","4","levels","explain","","3_levels","74","0","1","0"
"","330","html-keyboard-response","26","186872","0.0-8.0-2.0-2.0","fGIPsiTijKyDO","explicit","shuffled","","","","0","4","levels","explain","","3_levels","74","1","2","0"
"","688","html-keyboard-response","27","187563","0.0-8.0-2.0-3.0","fGIPsiTijKyDO","explicit","shuffled","","","","0","4","levels","explain","","3_levels","70","4","3","0"
"","328","html-keyboard-response","28","187893","0.0-8.0-2.0-4.0","fGIPsiTijKyDO","explicit","shuffled","","","","0","4","levels","explain","","3_levels","70","2","4","0"
"","650","html-keyboard-response","29","188546","0.0-8.0-2.0-5.0","fGIPsiTijKyDO","explicit","shuffled","","","","0","4","levels","explain","","3_levels","70","3","5","0"
"","1444","image-keyboard-response","30","189994","0.0-9.0-0.0","fGIPsiTijKyDO","explicit","shuffled","","","","0","4","levels","explain","","img/0_levels.png","32","","",""
"","270717","survey-text","31","460721","0.0-9.0-1.0-0.0","fGIPsiTijKyDO","explicit","shuffled","","","","0","4","levels","explain","{""Q0"":"""",""Q1"":""""}","","","","",""
"","2915","survey-text","32","463638","0.0-9.0-1.1-0.1","fGIPsiTijKyDO","explicit","shuffled","","","","0","4","levels","explain","{""Q0"":""asf"",""Q1"":""asf""}","","","","",""
"","1025","html-keyboard-response","33","464665","0.0-9.0-2.0-0.0","fGIPsiTijKyDO","explicit","shuffled","","","","0","4","levels","explain","","0_levels","70","3","0","0"
"","260","html-keyboard-response","34","464927","0.0-9.0-2.0-1.0","fGIPsiTijKyDO","explicit","shuffled","","","","0","4","levels","explain","","0_levels","70","5","1","0"
"","296","html-keyboard-response","35","465225","0.0-9.0-2.0-2.0","fGIPsiTijKyDO","explicit","shuffled","","","","0","4","levels","explain","","0_levels","70","4","2","0"
"","346","html-keyboard-response","36","465574","0.0-9.0-2.0-3.0","fGIPsiTijKyDO","explicit","shuffled","","","","0","4","levels","explain","","0_levels","70","0","3","1"
"","4043","html-keyboard-response","37","469620","0.0-9.0-2.0-4.0","fGIPsiTijKyDO","explicit","shuffled","","","","0","4","levels","explain","","0_levels","70","1","4","1"
"","4685","html-keyboard-response","38","474307","0.0-9.0-2.0-5.0","fGIPsiTijKyDO","explicit","shuffled","","","","0","4","levels","explain","","0_levels","70","2","5","0"
"","2552","image-keyboard-response","39","476862","0.0-10.0-0.0","fGIPsiTijKyDO","explicit","shuffled","","","","0","4","levels","explain","","img/4_levels.png","32","","",""
